[{"rt":390,"stimulus":"<div style='color:white'>Welcome to our experiment.<br><br>Press the SPACE key to continue.</div>","response":" ","trial_type":"html-keyboard-response","trial_index":0,"time_elapsed":391,"internal_node_id":"0.0-0.0-0.0","bean_trial_duration":null,"bean_duration":null,"bean_stimulus":"<div style='color:white'>Welcome to our experiment.<br><br>Press the SPACE key to continue.</div>","bean_choices":[" "],"bean_correct_key":"","bean_type":"jsPsychHtmlKeyboardResponse","bean_correct":false},{"rt":419,"stimulus":"<div style='color:white'>You will be presented with trolley problems where you must decide whether to pull a lever.<br>- Pulling the lever will change the trolley's trajectory to the side track.<br>- If you do nothing, the trolley will remain on the main track.<br><br>Press the SPACE key to BEGIN the experiment.</div>","response":" ","trial_type":"html-keyboard-response","trial_index":1,"time_elapsed":812,"internal_node_id":"0.0-0.0-1.0","bean_trial_duration":null,"bean_duration":null,"bean_stimulus":"<div style='color:white'>You will be presented with trolley problems where you must decide whether to pull a lever.<br>- Pulling the lever will change the trolley's trajectory to the side track.<br>- If you do nothing, the trolley will remain on the main track.<br><br>Press the SPACE key to BEGIN the experiment.</div>","bean_choices":[" "],"bean_correct_key":"","bean_type":"jsPsychHtmlKeyboardResponse","bean_correct":false},{"rt":75865,"response":{"Q0":"Pull the lever"},"question_order":[0],"trial_type":"survey-multi-choice","trial_index":2,"time_elapsed":76681,"internal_node_id":"0.0-1.0-0.0","bean_questions":[{"prompt":"You are standing by the railroad tracks when you notice an empty boxcar rolling out of control. It is moving so fast that anyone it hits will die. Ahead on the main track are four politicians. There are two people. If you do nothing, the boxcar will hit the four politicians on the main track, but not the two people on the side track. If you flip a switch next to you, it will divert the boxcar to the side track where it will hit the two people but not the four politicians on the main track.","options":["Pull the lever","Do nothing"]}],"bean_type":"jsPsychSurveyMultiChoice","bean_response":{"Q0":"Pull the lever"}},{"rt":27689,"response":{"Q0":"Do nothing"},"question_order":[0],"trial_type":"survey-multi-choice","trial_index":3,"time_elapsed":104372,"internal_node_id":"0.0-1.0-0.1","bean_questions":[{"prompt":"You are standing by the railroad tracks when you notice an empty boxcar rolling out of control. It is moving so fast that anyone it hits will die. Ahead on the main track are two murderers. There are three men. If you do nothing, the boxcar will hit the two murderers on the main track, but not the three men on the side track. If you flip a switch next to you, it will divert the boxcar to the side track where it will hit the three men but not the two murderers on the main track.","options":["Pull the lever","Do nothing"]}],"bean_type":"jsPsychSurveyMultiChoice","bean_response":{"Q0":"Do nothing"}},{"rt":17071,"response":{"Q0":"Do nothing"},"question_order":[0],"trial_type":"survey-multi-choice","trial_index":4,"time_elapsed":121445,"internal_node_id":"0.0-1.0-0.2","bean_questions":[{"prompt":"You are standing by the railroad tracks when you notice an empty boxcar rolling out of control. It is moving so fast that anyone it hits will die. Ahead on the main track are two thieves. There are two men. If you do nothing, the boxcar will hit the two thieves on the main track, but not the two men on the side track. If you flip a switch next to you, it will divert the boxcar to the side track where it will hit the two men but not the two thieves on the main track.","options":["Pull the lever","Do nothing"]}],"bean_type":"jsPsychSurveyMultiChoice","bean_response":{"Q0":"Do nothing"}},{"rt":10313,"response":{"Q0":"Do nothing"},"question_order":[0],"trial_type":"survey-multi-choice","trial_index":5,"time_elapsed":131760,"internal_node_id":"0.0-1.0-0.3","bean_questions":[{"prompt":"You are standing by the railroad tracks when you notice an empty boxcar rolling out of control. It is moving so fast that anyone it hits will die. Ahead on the main track are two criminals. There are five boys. If you do nothing, the boxcar will hit the two criminals on the main track, but not the five boys on the side track. If you flip a switch next to you, it will divert the boxcar to the side track where it will hit the five boys but not the two criminals on the main track.","options":["Pull the lever","Do nothing"]}],"bean_type":"jsPsychSurveyMultiChoice","bean_response":{"Q0":"Do nothing"}}]